Folder: spectrafit/Examples

Note: Examples/example_1.json
{
  "fitting": {
    "description": {
      "project_name": "Example1",
      "project_details": "Example 1",
      "keywords": [
        "2D-Spectra",
        "fitting",
        "curve-fitting",
        "peak-fitting",
        "spectrum"
      ]
    },
    "parameters": {
      "minimizer": {
        "nan_policy": "propagate",
        "calc_covar": true
      },
      "optimizer": {
        "max_nfev": 1000,
        "method": "leastsq"
      },
      "report": {
        "min_correl": 0.0
      }
    },
    "peaks": {
      "1": {
        "pseudovoigt": {
          "amplitude": {
            "max": 2,
            "min": 0,
            "vary": true,
            "value": 1
          },
          "center": {
            "max": 2,
            "min": -2,
            "vary": true,
            "value": 0
          },
          "fwhmg": {
            "max": 0.5,
            "min": 0.02,
            "vary": true,
            "value": 0.1
          },
          "fwhml": {
            "max": 0.5,
            "min": 0.01,
            "vary": true,
            "value": 0.1
          }
        }
      }
    }
  }
}

Note: Examples/example_1.yaml
---
fitting:
  description:
    project_name: Example1
    project_details: Example 1
    keywords:
    - 2D-Spectra
    - fitting
    - curve-fitting
    - peak-fitting
    - spectrum
  parameters:
    minimizer:
      nan_policy: propagate
      calc_covar: true
    optimizer:
      max_nfev: 1000
      method: leastsq
    report:
      min_correl: 0
  peaks:
    '1':
      pseudovoigt:
        amplitude:
          max: 2
          min: 0
          vary: true
          value: 1
        center:
          max: 2
          min: -2
          vary: true
          value: 0
        fwhmg:
          max: 0.5
          min: 0.02
          vary: true
          value: 0.1
        fwhml:
          max: 0.5
          min: 0.01
          vary: true
          value: 0.1

Note: Examples/example_2.json
{
  "settings": {
    "column": [0, 1],
    "decimal": ".",
    "disp": false,
    "energy_start": -1,
    "energy_stop": 2.4,
    "header": null,
    "infile": "data.txt",
    "outfile": "example_2",
    "oversampling": false,
    "seperator": "\t",
    "shift": 0,
    "smooth": 0,
    "verbose": false,
    "version": false
  },
  "fitting": {
    "description": {
      "project_name": "Template",
      "project_details": "Template for testing",
      "keywords": [
        "2D-Spectra",
        "fitting",
        "curve-fitting",
        "peak-fitting",
        "spectrum"
      ]
    },

    "parameters": {
      "minimizer": { "nan_policy": "propagate", "calc_covar": true },
      "optimizer": { "max_nfev": 1000, "method": "leastsq" },
      "report": { "min_correl": 0.0 }
    },
    "peaks": {
      "1": {
        "pseudovoigt": {
          "amplitude": {
            "max": 2,
            "min": 0,
            "vary": true,
            "value": 1
          },
          "center": {
            "max": 0.5,
            "min": -0.5,
            "vary": true,
            "value": 0
          },
          "fwhm_g": {
            "max": 0.75,
            "min": 0.001,
            "vary": true,
            "value": 0.01
          },
          "fwhm_l": {
            "max": 0.75,
            "min": 0.001,
            "vary": true,
            "value": 0.01
          }
        }
      },
      "2": {
        "pseudovoigt": {
          "amplitude": {
            "max": 2,
            "min": 0,
            "vary": true,
            "value": 1
          },
          "center": {
            "max": 2,
            "min": 0,
            "vary": false,
            "value": 1.662
          },
          "fwhm_g": {
            "max": 0.5,
            "min": 0.02,
            "vary": true,
            "value": 0.01
          },
          "fwhm_l": {
            "max": 0.5,
            "min": 0.01,
            "vary": true,
            "value": 0.01
          }
        }
      },
      "3": {
        "pseudovoigt": {
          "amplitude": {
            "max": 2,
            "min": 0,
            "vary": true,
            "value": 1
          },
          "center": {
            "max": 2,
            "min": 1.8,
            "vary": false,
            "value": 1.924
          },
          "fwhm_g": {
            "max": 0.75,
            "min": 0.001,
            "vary": true,
            "value": 0.01
          },
          "fwhm_l": {
            "max": 0.75,
            "min": 0.001,
            "vary": true,
            "value": 0.01
          }
        }
      },
      "4": {
        "pseudovoigt": {
          "amplitude": {
            "max": 2,
            "min": 0,
            "vary": true,
            "value": 1
          },
          "center": {
            "max": 2,
            "min": 1,
            "vary": false,
            "value": 2.157
          },
          "fwhm_g": {
            "max": 0.75,
            "min": 0.001,
            "vary": true,
     

Note: Examples/example_3.json
{
  "settings": {
    "column": ["Energy", "Noisy"],
    "decimal": ".",
    "energy_start": -1,
    "energy_stop": 2,
    "header": 0,
    "infile": "data.csv",
    "outfile": "example_3",
    "oversampling": false,
    "separator": ",",
    "shift": 0,
    "smooth": 0,
    "verbose": 1,
    "version": false
  },
  "fitting": {
    "description": {
      "project_name": "Template",
      "project_details": "Template for testing",
      "keywords": [
        "2D-Spectra",
        "fitting",
        "curve-fitting",
        "peak-fitting",
        "spectrum"
      ]
    },

    "parameters": {
      "minimizer": { "nan_policy": "propagate", "calc_covar": true },
      "optimizer": { "max_nfev": 1000, "method": "leastsq" },
      "report": { "min_correl": 0.0 }
    },
    "peaks": {
      "1": {
        "pseudovoigt": {
          "amplitude": {
            "max": 2,
            "min": 0,
            "vary": true,
            "value": 1
          },
          "center": {
            "max": 0.5,
            "min": -0.5,
            "vary": true,
            "value": 0
          },
          "fwhmg": {
            "max": 0.75,
            "min": 0.001,
            "vary": true,
            "value": 0.01
          },
          "fwhml": {
            "max": 0.75,
            "min": 0.001,
            "vary": true,
            "value": 0.01
          }
        }
      },
      "2": {
        "pseudovoigt": {
          "amplitude": {
            "max": 2,
            "min": 0,
            "vary": true,
            "value": 1
          },
          "center": {
            "max": 2,
            "min": 0,
            "vary": true,
            "value": 1.662
          },
          "fwhmg": {
            "max": 0.5,
            "min": 0.02,
            "vary": true,
            "value": 0.01
          },
          "fwhml": {
            "max": 0.5,
            "min": 0.01,
            "vary": true,
            "value": 0.01
          }
        }
      },
      "3": {
        "pseudovoigt": {
          "amplitude": {
            "max": 2,
            "min": 0,
            "vary": true,
            "value": 1
          },
          "center": {
            "max": 2,
            "min": 1.8,
            "vary": true,
            "value": 1.924
          },
          "fwhmg": {
            "max": 0.75,
            "min": 0.001,
            "vary": true,
            "value": 0.01
          },
          "fwhml": {
            "max": 0.75,
            "min": 0.001,
            "vary": true,
            "value": 0.01
          }
        }
      },
      "4": {
        "pseudovoigt": {
          "amplitude": {
            "max": 2,
            "min": 0,
            "vary": true,
            "value": 1
          },
          "center": {
            "max": 2,
            "min": 1,
            "vary": true,
            "value": 2.157
          },
          "fwhmg": {
            "max": 0.75,
            "min": 0.001,
            "vary": true,
            "value": 0.01
     

File: athena.nor
# XDI/1.0 Demeter/0.9.26
# Demeter.output_filetype: multicolumn normalized mu(E)
# Element.symbol: V
# Element.edge: K
# Column.1: energy eV
# Column.2: JZP-4-merged
#------------------------
#  energy  JZP-4-merged
  5263.85       0.127374
  5283.85       0.0811144
  5303.85       0.0471588
  5323.85       0.0253149
  5343.85       0.0120775
  5363.85       0.00410572
  5383.85       0.000335473
  5403.85      -0.00137173
  5423.85      -0.00109876
  5434.1      -4.1707e-05
  5434.6      -0.000137942
  5435.1      -7.24357e-05
  5435.6       0.000271741
  5436.1       9.12372e-05
  5436.6       0.000222034
  5437.1       0.000335631
  5437.6       0.000326216
  5438.1       0.000312632
  5438.6       0.000341043
  5439.1       0.000520697
  5439.6       0.000627976
  5440.1       0.000750088
  5440.6       0.000711289
  5441.1       0.000994494
  5441.6       0.00110343
  5442.1       0.00116117
  5442.6       0.00113099
  5443.1       0.00124452
  5443.6       0.00141084
  5444.1       0.00162117
  5444.6       0.00152372
  5445.1       0.0018384
  5445.6       0.00182112
  5446.1       0.00243451
  5446.6       0.00219953
  5447.1       0.00213947
  5447.6       0.00260872
  5448.1       0.00256427
  5448.6       0.00253713
  5449.1       0.0029002
  5449.6       0.00312336
  5450.1       0.00322918
  5450.6       0.00310561
  5451.1       0.0035005
  5451.6       0.00383964
  5452.1       0.00412562
  5452.6       0.00402637
  5453.1       0.00453636
  5453.6       0.00450301
  5454.1       0.00530334
  5454.6       0.00491207
  5455.1       0.00546057
  5455.6       0.00600014
  5456.1       0.0058971
  5456.6       0.00636184
  5457.1       0.00713475
  5457.6       0.007411
  5458.1       0.00780105
  5458.6       0.00829852
  5459.1       0.00877788
  5459.6       0.00936502
  5460.1       0.0101722
  5460.6       0.010813
  5461.1       0.0121456
  5461.6       0.013123
  5462.1       0.0141988
  5462.6       0.0152512
  5463.1       0.0171861
  5463.6       0.0190605
  5464.1       0.0219234
  5464.6       0.0250322
  5465.1       0.0295477
  5465.6       0.0369279
  5466.1       0.0471202
  5466.6       0.066197
  5467.1       0.103967
  5467.6       0.18073
  5468.1       0.350051
  5468.6       0.658751
  5469.1       0.652734
  5469.6       0.483062
  5470.1       0.325978
  5470.6       0.182044
  5471.1       0.117781
  5471.6       0.0953873
  5472.1       0.0935173
  5472.6       0.104298
  5473.1       0.123521
  5473.6       0.14667
  5474.1       0.171756
  5474.6       0.204985
  5475.1       0.251243
  5475.6       0.300177
  5476.1       0.33622
  5476.6       0.366471
  5477.1       0.392523
  5477.6       0.417726
  5478.1       0.444828
  5478.6       0.472725
  5479.1       0.50929
  5479.6       0.559359
  5480.1       0.627442
  5480.6       0.714667
  5481.1       0.815801
  5481.6       0.923114
  5482.1        1.02037
  5482.6        1.08612
  5483.1        1.12228
  5483.6        1.13874
  5484.1        1.13962
  5484.6        1.13319
  5485.1        1.11428
  5485.6        1.09214
  5486.1        1.06886
  5486.6        1.05084
  5487.1        1.03851
  5487.6        1.0337
  5488.1        1.03283
  5488.6        1.03682
  5489.1        1.05331
  5489.6        1.0738
  5490.1        1.10535
  5490.6        1.14145
  5491.1        1.18353
  5491.6        1.21694
  5492.1        1.2417
  5492.6        1.25722
  5493.1        1.267
  5493.6        1.26655
  5494.1        1.2651
  5494.6        1.25967
  5495.1        1.25144
  5495.6        1.2372
  5496.1        1.22009
  5496.6        1.19893
  5497.1        1.17956
  5497.6        1.16039
  5498.1        1.14141
  5498.6        1.12729
  5499.1        1.11461
  5499.6        1.10565
  5500.1        1.09915
  5500.6        1.08946
  5501.1        1.0828
  5501.6        1.07601
  5502.1        1.07075
  5502.6        1.06429
  5503.1        1.05719
  5503.6        1.05458
  5505.09        1.03819
  5507.64        1.02194
  5510.26       0.995613
  5512.96       0.975723
  5515.73       0.949523
  5518.58       0.942798
  5521.51       0.954808
  5524.51       0.975532
  5527.59       0.985417
  5530.75       0.983447
  5533.98       0.987205
  5537.29       0.992429
  5540.67       0.999953
  5544.13        1.00827
  5547.67        1.02417
  5551.28        1.03322
  5554.97        1.03408
  5558.74        1.02939
  5562.57        1.01762
  5566.49        1.00385
  5570.49       0.992107
  5574.56       0.984887
  5578.7       0.982277
  5582.92       0.977805
  5587.22       0.976487
  5591.6       0.975516
  5596.05       0.974093
  5600.58       0.972465
  5605.18       0.979065
  5609.86       0.983458
  5614.62       0.992875
  5619.45        1.00139
  5624.36        1.01172
  5629.34        1.01945
  5634.4        1.02268
  5639.54        1.02551
  5644.75        1.02408
  5650.04        1.02069
  5655.41        1.01609
  5660.85        1.01159
  5666.37        1.00241
  5671.96       0.994502
  5677.63       0.990525
  5683.38       0.986645
  5689.2       0.988295
  5695.1       0.987236
  5701.07       0.995708
  5707.75        1.0048